{
  "resourceType": "Bundle",
  "id": "GOFSH-GENERATED-ID-0",
  "meta": {
    "lastUpdated": "2024-04-05T13:28:17.239+09:00",
    "profile": [
      "http://jpfhir.jp/fhir/eCheckup/StructureDefinition/JP_Bundle_eCheckupGeneral"
    ]
  },
  "identifier": {
    "system": "http://jpfhir.jp/fhir/core/IdSystem/documentInstance-identifier",
    "value": "12345"
  },
  "type": "document",
  "timestamp": "2024-04-05T13:28:17.239+09:00",
  "entry": [
    {
      "fullUrl": "urn:uuid:fd13ba04-3b58-ac07-fad6-464cec87691d",
      "resource": {
        "resourceType": "Composition",
        "id": "Inline-Instance-for-GOFSH-GENERATED-ID-0-1",
        "meta": {
          "lastUpdated": "2024-04-05T13:28:17.239+09:00",
          "profile": [
            "http://jpfhir.jp/fhir/eCheckup/StructureDefinition/JP_Composition_eCheckupGeneral"
          ]
        },
        "language": "ja",
        "extension": [
          {
            "url": "http://hl7.org/fhir/StructureDefinition/composition-clinicaldocument-versionNumber",
            "valueString": "1.0"
          }
        ],
        "identifier": {
          "system": "http://jpfhir.jp/fhir/core/IdSystem/resourceInstance-identifier",
          "value": "12345"
        },
        "status": "final",
        "type": {
          "coding": [
            {
              "code": "53576-5",
              "system": "http://jpfhir.jp/fhir/Common/CodeSystem/doc-typecodes",
              "display": "検診・健診報告書"
            }
          ]
        },
        "category": [
          {
            "coding": [
              {
                "code": "10",
                "system": "http://jpfhir.jp/fhir/eCheckup/CodeSystem/checkup-report-category",
                "display": "特定健診"
              },
              {
                "code": "10",
                "system": "urn:oid:2.16.840.1.113883.2.2.1.6.1001",
                "display": "特定健診"
              }
            ]
          }
        ],
        "subject": {
          "reference": "urn:uuid:4bc68294-1895-d159-655b-1bc7e83f52f3"
        },
        "encounter": {
          "reference": "urn:uuid:3af3232e-1579-d4f6-3578-aa1e799fdcad"
        },
        "date": "2024-04-05T13:28:17+09:00",
        "author": [
          {
            "reference": "urn:uuid:6c4ef273-df66-00ab-c021-d05c5a19e0ba"
          },
          {
            "reference": "urn:uuid:d1fb6063-8f12-4c2c-922a-7b5e467c8407"
          }
        ],
        "title": "健康診断結果のお知らせ",
        "custodian": {
          "reference": "urn:uuid:d1fb6063-8f12-4c2c-922a-7b5e467c8407"
        },
        "event": [
          {
            "code": [
              {
                "coding": [
                  {
                    "code": "010",
                    "system": "http://jpfhir.jp/fhir/eCheckup/CodeSystem/checkup-programService-code",
                    "display": "特定健診"
                  }
                ]
              }
            ],
            "period": {
              "start": "2024-04-05",
              "end": "2024-04-05"
            },
            "detail": [
              {
                "reference": "urn:uuid:3af3232e-1579-d4f6-3578-aa1e799fdcad"
              }
            ]
          }
        ],
        "section": [
          {
            "title": "健診セクション",
            "code": {
              "coding": [
                {
                  "code": "01011",
                  "system": "http://jpfhir.jp/fhir/eCheckup/CodeSystem/section-code",
                  "display": "特定健診検査結果セクション"
                }
              ]
            },
            "text": {
              "status": "generated",
              "div": "<div xmlns=\"http://www.w3.org/1999/xhtml\"><ul><li>身長 162.3 cm</li><li>体重 65.5 kg</li><li>BMI 24.9 kg/m2</li><li>腹囲 70 cm</li><li>メタボリックシンドローム判定 非該当</li><li>保健指導レベル なし</li></ul></div>"
            },
            "entry": [
              {
                "reference": "urn:uuid:4bc68294-1895-d159-655b-1bc7e83f52f3"
              },
              {
                "reference": "urn:uuid:6c4ef273-df66-00ab-c021-d05c5a19e0ba"
              },
              {
                "reference": "urn:uuid:d1fb6063-8f12-4c2c-922a-7b5e467c8407"
              },
              {
                "reference": "urn:uuid:3af3232e-1579-d4f6-3578-aa1e799fdcad"
              },
              {
                "reference": "urn:uuid:7c9f9f7f-e546-0ac2-6828-a9e0b24e5750"
              },
              {
                "reference": "urn:uuid:b41c8c97-f3ad-450a-1738-5f2b4c40c68a"
              },
              {
                "reference": "urn:uuid:cde1fec2-f8af-a793-7fe0-c2c417c9c000"
              },
              {
                "reference": "urn:uuid:51424f15-c213-00bf-5d31-4770244b4f32"
              }
            ]
          }
        ]
      }
    },
    {
      "fullUrl": "urn:uuid:4bc68294-1895-d159-655b-1bc7e83f52f3",
      "resource": {
        "resourceType": "Patient",
        "id": "Inline-Instance-for-GOFSH-GENERATED-ID-0-2",
        "meta": {
          "lastUpdated": "2024-04-05T13:28:17.239+09:00",
          "profile": [
            "http://jpfhir.jp/fhir/eCheckup/StructureDefinition/JP_Patient_eCheckupGeneral"
          ]
        },
        "identifier": [
          {
            "system": "urn:oid:1.2.392.200119.6.102.11311234567",
            "value": "34567"
          }
        ],
        "name": [
          {
            "extension": [
              {
                "url": "http://hl7.org/fhir/StructureDefinition/iso21090-EN-representation",
                "valueCode": "IDE"
              }
            ],
            "use": "official",
            "text": "健診 太郎",
            "family": "健診",
            "given": [
              "太郎"
            ]
          },
          {
            "extension": [
              {
                "url": "http://hl7.org/fhir/StructureDefinition/iso21090-EN-representation",
                "valueCode": "SYL"
              }
            ],
            "use": "official",
            "text": "ケンシン タロウ",
            "family": "ケンシン",
            "given": [
              "タロウ"
            ]
          }
        ],
        "telecom": [
          {
            "system": "phone",
            "value": "03-1111-2222",
            "use": "home"
          }
        ],
        "gender": "male",
        "birthDate": "1950-05-04",
        "address": [
          {
            "text": "神奈川県横浜市港区１－２－３",
            "postalCode": "123-4567",
            "country": "JP"
          }
        ]
      }
    },
    {
      "fullUrl": "urn:uuid:6c4ef273-df66-00ab-c021-d05c5a19e0ba",
      "resource": {
        "resourceType": "Practitioner",
        "id": "Inline-Instance-for-GOFSH-GENERATED-ID-0-3",
        "meta": {
          "lastUpdated": "2024-04-05T13:28:17.239+09:00",
          "profile": [
            "http://jpfhir.jp/fhir/eCheckup/StructureDefinition/JP_PractitionerReporter_eCheckupGeneral"
          ]
        },
        "name": [
          {
            "extension": [
              {
                "url": "http://hl7.org/fhir/StructureDefinition/iso21090-EN-representation",
                "valueCode": "IDE"
              }
            ],
            "text": "東京 太郎",
            "family": "東京",
            "given": [
              "太郎"
            ]
          },
          {
            "extension": [
              {
                "url": "http://hl7.org/fhir/StructureDefinition/iso21090-EN-representation",
                "valueCode": "SYL"
              }
            ],
            "text": "トウキョウ タロウ",
            "family": "トウキョウ",
            "given": [
              "タロウ"
            ]
          }
        ]
      }
    },
    {
      "fullUrl": "urn:uuid:d1fb6063-8f12-4c2c-922a-7b5e467c8407",
      "resource": {
        "resourceType": "Organization",
        "id": "Inline-Instance-for-GOFSH-GENERATED-ID-0-4",
        "meta": {
          "lastUpdated": "2024-04-05T13:28:17.239+09:00",
          "profile": [
            "http://jpfhir.jp/fhir/eCheckup/StructureDefinition/JP_OrganizationReporter_eCheckupGeneral"
          ]
        },
        "identifier": [
          {
            "system": "urn:oid:1.2.392.200119.6.102",
            "value": "1311234567"
          }
        ],
        "type": [
          {
            "coding": [
              {
                "code": "prov",
                "system": "http://terminology.hl7.org/CodeSystem/organization-type"
              }
            ]
          }
        ],
        "name": "厚生労働省第一病院",
        "telecom": [
          {
            "system": "phone",
            "value": "0123-456-7890"
          }
        ],
        "address": [
          {
            "text": "東京都千代田区千代田９－９－９",
            "postalCode": "100-0001",
            "country": "JP"
          }
        ]
      }
    },
    {
      "fullUrl": "urn:uuid:3af3232e-1579-d4f6-3578-aa1e799fdcad",
      "resource": {
        "resourceType": "Encounter",
        "id": "Inline-Instance-for-GOFSH-GENERATED-ID-0-5",
        "meta": {
          "lastUpdated": "2024-04-05T13:28:17.239+09:00",
          "profile": [
            "http://jpfhir.jp/fhir/eCheckup/StructureDefinition/JP_Encounter_eCheckupGeneral"
          ]
        },
        "status": "finished",
        "class": {
          "code": "checkup",
          "system": "http://jpfhir.jp/fhir/eCheckup/CodeSystem/encounter-category",
          "display": "健診"
        },
        "period": {
          "start": "2020-04-04",
          "end": "2020-04-04"
        },
        "serviceProvider": {
          "reference": "urn:uuid:d1fb6063-8f12-4c2c-922a-7b5e467c8407"
        }
      }
    },
    {
      "fullUrl": "urn:uuid:7c9f9f7f-e546-0ac2-6828-a9e0b24e5750",
      "resource": {
        "resourceType": "Organization",
        "id": "Inline-Instance-for-GOFSH-GENERATED-ID-0-8",
        "meta": {
          "lastUpdated": "2024-04-05T13:28:17.239+09:00",
          "profile": [
            "http://jpfhir.jp/fhir/eCheckup/StructureDefinition/JP_OrganizationInsurer_eCheckupGeneral"
          ]
        },
        "identifier": [
          {
            "system": "urn:oid:1.2.392.100495.20.3.61",
            "value": "06123456"
          }
        ],
        "type": [
          {
            "coding": [
              {
                "code": "ins",
                "system": "http://terminology.hl7.org/CodeSystem/organization-type"
              }
            ]
          }
        ],
        "name": "サンプル健康保険組合"
      }
    },
    {
      "fullUrl": "urn:uuid:b41c8c97-f3ad-450a-1738-5f2b4c40c68a",
      "resource": {
        "resourceType": "Observation",
        "id": "Inline-Instance-for-GOFSH-GENERATED-ID-0-9",
        "meta": {
          "lastUpdated": "2024-04-05T13:28:17.239+09:00",
          "profile": [
            "http://jpfhir.jp/fhir/eCheckup/StructureDefinition/JP_Observation_eCheckup_spc_XXXX"
          ]
        },
        "code": {
          "coding": [
            {
              "code": "9N001000000000001",
              "system": "urn:oid:1.2.392.200119.6.1005",
              "display": "身長"
            }
          ]
        },
        "status": "final",
        "category": [
          {
            "coding": [
              {
                "code": "body-measurement",
                "system": "http://jpfhir.jp/fhir/core/CodeSystem/JP_SimpleObservationCategory_CS"
              }
            ]
          }
        ],
        "subject": {
          "reference": "urn:uuid:4bc68294-1895-d159-655b-1bc7e83f52f3"
        },
        "valueQuantity": {
          "value": 162.3,
          "code": "cm",
          "system": "http://unitsofmeasure.org",
          "unit": "cm"
        }
      }
    },
    {
      "fullUrl": "urn:uuid:cde1fec2-f8af-a793-7fe0-c2c417c9c000",
      "resource": {
        "resourceType": "Observation",
        "id": "Inline-Instance-for-GOFSH-GENERATED-ID-0-10",
        "meta": {
          "lastUpdated": "2024-04-05T13:28:17.239+09:00",
          "profile": [
            "http://jpfhir.jp/fhir/eCheckup/StructureDefinition/JP_Observation_eCheckup_spc_YYYY"
          ]
        },
        "code": {
          "coding": [
            {
              "code": "9N006000000000001",
              "system": "urn:oid:1.2.392.200119.6.1005",
              "display": "体重"
            }
          ]
        },
        "status": "final",
        "category": [
          {
            "coding": [
              {
                "code": "body-measurement",
                "system": "http://jpfhir.jp/fhir/core/CodeSystem/JP_SimpleObservationCategory_CS"
              }
            ]
          }
        ],
        "subject": {
          "reference": "urn:uuid:4bc68294-1895-d159-655b-1bc7e83f52f3"
        },
        "valueQuantity": {
          "value": 65.5,
          "code": "kg",
          "system": "http://unitsofmeasure.org",
          "unit": "kg"
        }
      }
    },
    {
      "fullUrl": "urn:uuid:51424f15-c213-00bf-5d31-4770244b4f32",
      "resource": {
        "resourceType": "Observation",
        "id": "Inline-Instance-for-GOFSH-GENERATED-ID-0-11",
        "meta": {
          "lastUpdated": "2024-04-05T13:28:17.239+09:00",
          "profile": [
            "http://jpfhir.jp/fhir/eCheckup/StructureDefinition/JP_Observation_eCheckup_spc_ZZZZ"
          ]
        },
        "code": {
          "coding": [
            {
              "code": "9N011000000000001",
              "system": "urn:oid:1.2.392.200119.6.1005",
              "display": "ＢＭＩ"
            }
          ]
        },
        "status": "final",
        "category": [
          {
            "coding": [
              {
                "code": "body-measurement",
                "system": "http://jpfhir.jp/fhir/core/CodeSystem/JP_SimpleObservationCategory_CS"
              }
            ]
          }
        ],
        "subject": {
          "reference": "urn:uuid:4bc68294-1895-d159-655b-1bc7e83f52f3"
        },
        "valueQuantity": {
          "value": 24.9,
          "code": "kg/m2",
          "system": "http://unitsofmeasure.org",
          "unit": "kg/m2"
        }
      }
    }
  ]
}
